<?xml version="1.0" encoding="UTF-8"?>

<Bundle xmlns="http://hl7.org/fhir">
  <id value="LegemiddelregisterBundle-1"/>
  <meta>
    <profile value="http://hl7.no/fhir/ig/lmdi/StructureDefinition/lmdi-bundle"/>
  </meta>
  <identifier>
    <system value="urn:oid:2.16.578.1.34.10.3"/>
    <value value="bundle-001"/>
  </identifier>
  <type value="batch"/>
  <timestamp value="2024-02-07T13:28:17.239+02:00"/>
  <entry>
    <resource>
      <Patient>
        <id value="Pasient-20"/>
        <meta>
          <profile value="http://hl7.no/fhir/ig/lmdi/StructureDefinition/lmdi-patient"/>
        </meta>
        <text>
          <status value="generated"/><div xmlns="http://www.w3.org/1999/xhtml"><a name="Patient_Pasient-20"> </a><p class="res-header-id"><b>Generated Narrative: Patient Pasient-20</b></p><a name="Pasient-20"> </a><a name="hcPasient-20"> </a><a name="Pasient-20-no"> </a><div style="display: inline-block; background-color: #d9e0e7; padding: 6px; margin: 4px; border: 1px solid #8da1b4; border-radius: 5px; line-height: 60%"><p style="margin-bottom: 0px"/><p style="margin-bottom: 0px">Profile: <a href="StructureDefinition-lmdi-patient.html">Pasient</a></p></div><p style="border: 1px #661aff solid; background-color: #e6e6ff; padding: 10px;">Anonymous Patient (no stated gender), DoB Unknown ( urn:oid:2.16.578.1.12.4.1.4.1#13031353453)</p><hr/></div>
        </text>
        <identifier>
          <system value="urn:oid:2.16.578.1.12.4.1.4.1"/>
          <value value="13031353453"/>
        </identifier>
      </Patient>
    </resource>
    <request>
      <method value="POST"/>
      <url value="Patient"/>
    </request>
  </entry>
  <entry>
    <resource>
      <Medication>
        <id value="Medisin-10"/>
        <meta>
          <profile value="http://hl7.no/fhir/ig/lmdi/StructureDefinition/lmdi-medication"/>
        </meta>
        <text>
          <status value="generated"/><div xmlns="http://www.w3.org/1999/xhtml"><a name="Medication_Medisin-10"> </a><p class="res-header-id"><b>Generated Narrative: Medication Medisin-10</b></p><a name="Medisin-10"> </a><a name="hcMedisin-10"> </a><a name="Medisin-10-no"> </a><div style="display: inline-block; background-color: #d9e0e7; padding: 6px; margin: 4px; border: 1px solid #8da1b4; border-radius: 5px; line-height: 60%"><p style="margin-bottom: 0px"/><p style="margin-bottom: 0px">Profile: <a href="StructureDefinition-lmdi-medication.html">Legemiddel</a></p></div><p><b>code</b>: <span title="Codes:{http://dmp.no/fhir/NamingSystem/festLegemiddelDose ID_48BD33D2-2838-4B81-8225-02391B7A4516}, {http://snomed.info/sct 414984009}">Oxycodone Orifarm mikst oppl 1 mg/ml</span></p></div>
        </text>
        <code>
          <coding>
            <system value="http://dmp.no/fhir/NamingSystem/festLegemiddelDose"/>
            <code value="ID_48BD33D2-2838-4B81-8225-02391B7A4516"/>
            <display value="Oxycodone Orifarm mikst oppl 1 mg/ml"/>
          </coding>
          <coding>
            <system value="http://snomed.info/sct"/>
            <code value="414984009"/>
            <display value="Product containing oxycodone (medicinal product)"/>
          </coding>
        </code>
      </Medication>
    </resource>
    <request>
      <method value="POST"/>
      <url value="Medication"/>
    </request>
  </entry>
  <entry>
    <resource>
      <Practitioner>
        <id value="Helsepersonell-10"/>
        <meta>
          <profile value="http://hl7.no/fhir/ig/lmdi/StructureDefinition/lmdi-practitioner"/>
        </meta>
        <text>
          <status value="generated"/><div xmlns="http://www.w3.org/1999/xhtml"><a name="Practitioner_Helsepersonell-10"> </a><p class="res-header-id"><b>Generated Narrative: Practitioner Helsepersonell-10</b></p><a name="Helsepersonell-10"> </a><a name="hcHelsepersonell-10"> </a><a name="Helsepersonell-10-no"> </a><div style="display: inline-block; background-color: #d9e0e7; padding: 6px; margin: 4px; border: 1px solid #8da1b4; border-radius: 5px; line-height: 60%"><p style="margin-bottom: 0px"/><p style="margin-bottom: 0px">Profile: <a href="StructureDefinition-lmdi-practitioner.html">Helsepersonell</a></p></div><p><b>identifier</b>: <code>urn:oid:2.16.578.1.12.4.1.4.4</code>/9144900</p></div>
        </text>
        <identifier>
          <system value="urn:oid:2.16.578.1.12.4.1.4.4"/>
          <value value="9144900"/>
        </identifier>
      </Practitioner>
    </resource>
    <request>
      <method value="POST"/>
      <url value="Practitioner"/>
    </request>
  </entry>
  <entry>
    <resource>
      <Encounter>
        <id value="Episode-2-Sykehjem"/>
        <meta>
          <profile value="http://hl7.no/fhir/ig/lmdi/StructureDefinition/lmdi-encounter"/>
        </meta>
        <text>
          <status value="generated"/><div xmlns="http://www.w3.org/1999/xhtml"><a name="Encounter_Episode-2-Sykehjem"> </a><p class="res-header-id"><b>Generated Narrative: Encounter Episode-2-Sykehjem</b></p><a name="Episode-2-Sykehjem"> </a><a name="hcEpisode-2-Sykehjem"> </a><a name="Episode-2-Sykehjem-no"> </a><div style="display: inline-block; background-color: #d9e0e7; padding: 6px; margin: 4px; border: 1px solid #8da1b4; border-radius: 5px; line-height: 60%"><p style="margin-bottom: 0px"/><p style="margin-bottom: 0px">Profile: <a href="StructureDefinition-lmdi-encounter.html">Episode</a></p></div><p><b>status</b>: active</p><p><b>class</b>: <a href="http://terminology.hl7.org/6.2.0/CodeSystem-v3-ActCode.html#v3-ActCode-IMP">ActCode IMP</a>: inpatient encounter</p><p><b>serviceProvider</b>: <a href="Bundle-LegemiddelregisterBundle-1.html#Organization_Organisasjon-2-Eldrehjem">Bundle: identifier = urn:oid:2.16.578.1.34.10.3#bundle-001; type = batch; timestamp = 2024-02-07 13:28:17+0200</a></p></div>
        </text>
        <status value="active"/>
        <class>
          <system value="http://terminology.hl7.org/CodeSystem/v3-ActCode"/>
          <code value="IMP"/>
          <display value="inpatient encounter"/>
        </class>
        <serviceProvider>
          <reference value="Organization/Organisasjon-2-Eldrehjem"/>
        </serviceProvider>
      </Encounter>
    </resource>
    <request>
      <method value="POST"/>
      <url value="EpisodeOfCare"/>
    </request>
  </entry>
  <entry>
    <resource>
      <Organization>
        <id value="Organisasjon-2-Eldrehjem"/>
        <meta>
          <profile value="http://hl7.no/fhir/ig/lmdi/StructureDefinition/lmdi-organization"/>
        </meta>
        <text>
          <status value="generated"/><div xmlns="http://www.w3.org/1999/xhtml"><a name="Organization_Organisasjon-2-Eldrehjem"> </a><p class="res-header-id"><b>Generated Narrative: Organization Organisasjon-2-Eldrehjem</b></p><a name="Organisasjon-2-Eldrehjem"> </a><a name="hcOrganisasjon-2-Eldrehjem"> </a><a name="Organisasjon-2-Eldrehjem-no"> </a><div style="display: inline-block; background-color: #d9e0e7; padding: 6px; margin: 4px; border: 1px solid #8da1b4; border-radius: 5px; line-height: 60%"><p style="margin-bottom: 0px"/><p style="margin-bottom: 0px">Profile: <a href="StructureDefinition-lmdi-organization.html">Organisasjon</a></p></div><p><b>identifier</b>: <code>urn:oid:2.16.578.1.12.4.1.4.101</code>/1234567890</p><p><b>type</b>: <span title="Codes:{http://terminology.hl7.org/CodeSystem/organization-type prov}">Healthcare Provider</span></p><p><b>name</b>: Lykkedalen eldrehjem</p></div>
        </text>
        <identifier>
          <system value="urn:oid:2.16.578.1.12.4.1.4.101"/>
          <value value="1234567890"/>
        </identifier>
        <type>
          <coding>
            <system value="http://terminology.hl7.org/CodeSystem/organization-type"/>
            <code value="prov"/>
            <display value="Healthcare Provider"/>
          </coding>
        </type>
        <name value="Lykkedalen eldrehjem"/>
      </Organization>
    </resource>
    <request>
      <method value="POST"/>
      <url value="Organization"/>
    </request>
  </entry>
  <entry>
    <resource>
      <MedicationAdministration>
        <id value="Administrering-10"/>
        <meta>
          <profile value="http://hl7.no/fhir/ig/lmdi/StructureDefinition/lmdi-medicationadministration"/>
        </meta>
        <text>
          <status value="generated"/><div xmlns="http://www.w3.org/1999/xhtml"><a name="MedicationAdministration_Administrering-10"> </a><p class="res-header-id"><b>Generated Narrative: MedicationAdministration Administrering-10</b></p><a name="Administrering-10"> </a><a name="hcAdministrering-10"> </a><a name="Administrering-10-no"> </a><div style="display: inline-block; background-color: #d9e0e7; padding: 6px; margin: 4px; border: 1px solid #8da1b4; border-radius: 5px; line-height: 60%"><p style="margin-bottom: 0px"/><p style="margin-bottom: 0px">Profile: <a href="StructureDefinition-lmdi-medicationadministration.html">Legemiddeladministrering</a></p></div><p><b>status</b>: Completed</p><p><b>medication</b>: <a href="#hcAdministrering-10/Medisin-10">Medication Oxycodone Orifarm mikst oppl 1 mg/ml</a></p><p><b>subject</b>: <a href="#hcAdministrering-10/Pasient-20">Anonymous Patient (no stated gender), DoB Unknown ( urn:oid:2.16.578.1.12.4.1.4.1#13031353453)</a></p><p><b>context</b>: <a href="#hcAdministrering-10/Episode-2-Sykehjem">Encounter: status = active; class = inpatient encounter (ActCode#IMP)</a></p><p><b>effective</b>: 2024-05-28 13:14:00+0000</p><hr/><blockquote><p class="res-header-id"><b>Generated Narrative: Medication #Medisin-10</b></p><a name="Administrering-10/Medisin-10"> </a><a name="hcAdministrering-10/Medisin-10"> </a><a name="Administrering-10/Medisin-10-no"> </a><div style="display: inline-block; background-color: #d9e0e7; padding: 6px; margin: 4px; border: 1px solid #8da1b4; border-radius: 5px; line-height: 60%"><p style="margin-bottom: 0px"/><p style="margin-bottom: 0px">Profile: <a href="StructureDefinition-lmdi-medication.html">Legemiddel</a></p></div><p><b>code</b>: <span title="Codes:{http://dmp.no/fhir/NamingSystem/festLegemiddelDose ID_48BD33D2-2838-4B81-8225-02391B7A4516}, {http://snomed.info/sct 414984009}">Oxycodone Orifarm mikst oppl 1 mg/ml</span></p></blockquote><hr/><blockquote><p class="res-header-id"><b>Generated Narrative: Patient #Pasient-20</b></p><a name="Administrering-10/Pasient-20"> </a><a name="hcAdministrering-10/Pasient-20"> </a><a name="Administrering-10/Pasient-20-no"> </a><div style="display: inline-block; background-color: #d9e0e7; padding: 6px; margin: 4px; border: 1px solid #8da1b4; border-radius: 5px; line-height: 60%"><p style="margin-bottom: 0px"/><p style="margin-bottom: 0px">Profile: <a href="StructureDefinition-lmdi-patient.html">Pasient</a></p></div><p style="border: 1px #661aff solid; background-color: #e6e6ff; padding: 10px;">Anonymous Patient (no stated gender), DoB Unknown ( urn:oid:2.16.578.1.12.4.1.4.1#13031353453)</p><hr/></blockquote><hr/><blockquote><p class="res-header-id"><b>Generated Narrative: Practitioner #Helsepersonell-10</b></p><a name="Administrering-10/Helsepersonell-10"> </a><a name="hcAdministrering-10/Helsepersonell-10"> </a><a name="Administrering-10/Helsepersonell-10-no"> </a><div style="display: inline-block; background-color: #d9e0e7; padding: 6px; margin: 4px; border: 1px solid #8da1b4; border-radius: 5px; line-height: 60%"><p style="margin-bottom: 0px"/><p style="margin-bottom: 0px">Profile: <a href="StructureDefinition-lmdi-practitioner.html">Helsepersonell</a></p></div><p><b>identifier</b>: <code>urn:oid:2.16.578.1.12.4.1.4.4</code>/9144900</p></blockquote><hr/><blockquote><p class="res-header-id"><b>Generated Narrative: Encounter #Episode-2-Sykehjem</b></p><a name="Administrering-10/Episode-2-Sykehjem"> </a><a name="hcAdministrering-10/Episode-2-Sykehjem"> </a><a name="Administrering-10/Episode-2-Sykehjem-no"> </a><div style="display: inline-block; background-color: #d9e0e7; padding: 6px; margin: 4px; border: 1px solid #8da1b4; border-radius: 5px; line-height: 60%"><p style="margin-bottom: 0px"/><p style="margin-bottom: 0px">Profile: <a href="StructureDefinition-lmdi-encounter.html">Episode</a></p></div><p><b>status</b>: active</p><p><b>class</b>: <a href="http://terminology.hl7.org/6.2.0/CodeSystem-v3-ActCode.html#v3-ActCode-IMP">ActCode IMP</a>: inpatient encounter</p><p><b>serviceProvider</b>: <a href="#hcAdministrering-10/Organisasjon-2-Eldrehjem">Organization Lykkedalen eldrehjem</a></p></blockquote><hr/><blockquote><p class="res-header-id"><b>Generated Narrative: Organization #Organisasjon-2-Eldrehjem</b></p><a name="Administrering-10/Organisasjon-2-Eldrehjem"> </a><a name="hcAdministrering-10/Organisasjon-2-Eldrehjem"> </a><a name="Administrering-10/Organisasjon-2-Eldrehjem-no"> </a><div style="display: inline-block; background-color: #d9e0e7; padding: 6px; margin: 4px; border: 1px solid #8da1b4; border-radius: 5px; line-height: 60%"><p style="margin-bottom: 0px"/><p style="margin-bottom: 0px">Profile: <a href="StructureDefinition-lmdi-organization.html">Organisasjon</a></p></div><p><b>identifier</b>: <code>urn:oid:2.16.578.1.12.4.1.4.101</code>/1234567890</p><p><b>type</b>: <span title="Codes:{http://terminology.hl7.org/CodeSystem/organization-type prov}">Healthcare Provider</span></p><p><b>name</b>: Lykkedalen eldrehjem</p></blockquote></div>
        </text>
        <contained>
          <Medication>
            <id value="Medisin-10"/>
            <meta>
              <profile value="http://hl7.no/fhir/ig/lmdi/StructureDefinition/lmdi-medication"/>
            </meta>
            <code>
              <coding>
                <system value="http://dmp.no/fhir/NamingSystem/festLegemiddelDose"/>
                <code value="ID_48BD33D2-2838-4B81-8225-02391B7A4516"/>
                <display value="Oxycodone Orifarm mikst oppl 1 mg/ml"/>
              </coding>
              <coding>
                <system value="http://snomed.info/sct"/>
                <code value="414984009"/>
                <display value="Product containing oxycodone (medicinal product)"/>
              </coding>
            </code>
          </Medication>
        </contained>
        <contained>
          <Patient>
            <id value="Pasient-20"/>
            <meta>
              <profile value="http://hl7.no/fhir/ig/lmdi/StructureDefinition/lmdi-patient"/>
            </meta>
            <identifier>
              <system value="urn:oid:2.16.578.1.12.4.1.4.1"/>
              <value value="13031353453"/>
            </identifier>
          </Patient>
        </contained>
        <contained>
          <Practitioner>
            <id value="Helsepersonell-10"/>
            <meta>
              <profile value="http://hl7.no/fhir/ig/lmdi/StructureDefinition/lmdi-practitioner"/>
            </meta>
            <identifier>
              <system value="urn:oid:2.16.578.1.12.4.1.4.4"/>
              <value value="9144900"/>
            </identifier>
          </Practitioner>
        </contained>
        <contained>
          <Encounter>
            <id value="Episode-2-Sykehjem"/>
            <meta>
              <profile value="http://hl7.no/fhir/ig/lmdi/StructureDefinition/lmdi-encounter"/>
            </meta>
            <status value="active"/>
            <class>
              <system value="http://terminology.hl7.org/CodeSystem/v3-ActCode"/>
              <code value="IMP"/>
              <display value="inpatient encounter"/>
            </class>
            <serviceProvider>
              <reference value="#Organisasjon-2-Eldrehjem"/>
            </serviceProvider>
          </Encounter>
        </contained>
        <contained>
          <Organization>
            <id value="Organisasjon-2-Eldrehjem"/>
            <meta>
              <profile value="http://hl7.no/fhir/ig/lmdi/StructureDefinition/lmdi-organization"/>
            </meta>
            <identifier>
              <system value="urn:oid:2.16.578.1.12.4.1.4.101"/>
              <value value="1234567890"/>
            </identifier>
            <type>
              <coding>
                <system value="http://terminology.hl7.org/CodeSystem/organization-type"/>
                <code value="prov"/>
                <display value="Healthcare Provider"/>
              </coding>
            </type>
            <name value="Lykkedalen eldrehjem"/>
          </Organization>
        </contained>
        <status value="completed"/>
        <medicationReference>
          <reference value="#Medisin-10"/>
        </medicationReference>
        <subject>
          <reference value="#Pasient-20"/>
        </subject>
        <context>
          <reference value="#Episode-2-Sykehjem"/>
        </context>
        <effectiveDateTime value="2024-05-28T13:14:00Z"/>
      </MedicationAdministration>
    </resource>
    <request>
      <method value="POST"/>
      <url value="MedicationAdministration"/>
    </request>
  </entry>
</Bundle>