{
  "resourceType" : "Bundle",
  "id" : "LegemiddelregisterBundle-1",
  "meta" : {
    "profile" : ["http://hl7.no/fhir/ig/lmdi/StructureDefinition/lmdi-bundle"]
  },
  "identifier" : {
    "system" : "urn:oid:2.16.578.1.34.10.3",
    "value" : "bundle-001"
  },
  "type" : "batch",
  "timestamp" : "2024-02-07T13:28:17.239+02:00",
  "entry" : [{
    "resource" : {
      "resourceType" : "Patient",
      "id" : "Pasient-20",
      "text" : {
        "status" : "generated",
        "div" : "<div xmlns=\"http://www.w3.org/1999/xhtml\"><a name=\"Patient_Pasient-20\"> </a><p class=\"res-header-id\"><b>Generated Narrative: Patient Pasient-20</b></p><a name=\"Pasient-20\"> </a><a name=\"hcPasient-20\"> </a><a name=\"Pasient-20-no\"> </a><p style=\"border: 1px #661aff solid; background-color: #e6e6ff; padding: 10px;\">Rosa Eli Kopter  (no stated gender), DoB Unknown ( urn:oid:2.16.578.1.12.4.1.4.1#13031353453)</p><hr/></div>"
      },
      "identifier" : [{
        "system" : "urn:oid:2.16.578.1.12.4.1.4.1",
        "value" : "13031353453"
      }],
      "name" : [{
        "family" : "Kopter",
        "given" : ["Rosa Eli"]
      }]
    },
    "request" : {
      "method" : "POST",
      "url" : "Patient"
    }
  },
  {
    "resource" : {
      "resourceType" : "Medication",
      "id" : "Medisin-10",
      "text" : {
        "status" : "generated",
        "div" : "<div xmlns=\"http://www.w3.org/1999/xhtml\"><a name=\"Medication_Medisin-10\"> </a><p class=\"res-header-id\"><b>Generated Narrative: Medication Medisin-10</b></p><a name=\"Medisin-10\"> </a><a name=\"hcMedisin-10\"> </a><a name=\"Medisin-10-no\"> </a><p><b>code</b>: <span title=\"Codes:{http://dmp.no/fhir/NamingSystem/festLegemiddelDose ID_48BD33D2-2838-4B81-8225-02391B7A4516}, {http://snomed.info/sct 414984009}\">Oxycodone</span></p></div>"
      },
      "code" : {
        "coding" : [{
          "system" : "http://dmp.no/fhir/NamingSystem/festLegemiddelDose",
          "code" : "ID_48BD33D2-2838-4B81-8225-02391B7A4516",
          "display" : "Oxycodone Orifarm mikst oppl 1 mg/ml"
        },
        {
          "system" : "http://snomed.info/sct",
          "code" : "414984009",
          "display" : "Product containing oxycodone (medicinal product)"
        }],
        "text" : "Oxycodone"
      }
    },
    "request" : {
      "method" : "POST",
      "url" : "Medication"
    }
  },
  {
    "resource" : {
      "resourceType" : "Practitioner",
      "id" : "Helsepersonell-10",
      "text" : {
        "status" : "generated",
        "div" : "<div xmlns=\"http://www.w3.org/1999/xhtml\"><a name=\"Practitioner_Helsepersonell-10\"> </a><p class=\"res-header-id\"><b>Generated Narrative: Practitioner Helsepersonell-10</b></p><a name=\"Helsepersonell-10\"> </a><a name=\"hcHelsepersonell-10\"> </a><a name=\"Helsepersonell-10-no\"> </a><p><b>identifier</b>: <code>urn:oid:2.16.578.1.12.4.1.4.4</code>/9144900</p><p><b>name</b>: Rita Lin </p></div>"
      },
      "identifier" : [{
        "system" : "urn:oid:2.16.578.1.12.4.1.4.4",
        "value" : "9144900"
      }],
      "name" : [{
        "family" : "Lin",
        "given" : ["Rita"]
      }]
    },
    "request" : {
      "method" : "POST",
      "url" : "Practitioner"
    }
  },
  {
    "resource" : {
      "resourceType" : "PractitionerRole",
      "id" : "RolleHelsepersonell-10",
      "text" : {
        "status" : "generated",
        "div" : "<div xmlns=\"http://www.w3.org/1999/xhtml\"><a name=\"PractitionerRole_RolleHelsepersonell-10\"> </a><p class=\"res-header-id\"><b>Generated Narrative: PractitionerRole RolleHelsepersonell-10</b></p><a name=\"RolleHelsepersonell-10\"> </a><a name=\"hcRolleHelsepersonell-10\"> </a><a name=\"RolleHelsepersonell-10-no\"> </a><p><b>identifier</b>: <code>urn:oid:2.16.578.1.12.4.1.1.9034</code>/9</p></div>"
      },
      "identifier" : [{
        "system" : "urn:oid:2.16.578.1.12.4.1.1.9034",
        "value" : "9"
      }]
    },
    "request" : {
      "method" : "POST",
      "url" : "PractitionerRole"
    }
  },
  {
    "resource" : {
      "resourceType" : "Encounter",
      "id" : "Episode-2-Sykehjem",
      "meta" : {
        "profile" : ["http://hl7.no/fhir/ig/lmdi/StructureDefinition/lmdi-encounter"]
      },
      "text" : {
        "status" : "generated",
        "div" : "<div xmlns=\"http://www.w3.org/1999/xhtml\"><a name=\"Encounter_Episode-2-Sykehjem\"> </a><p class=\"res-header-id\"><b>Generated Narrative: Encounter Episode-2-Sykehjem</b></p><a name=\"Episode-2-Sykehjem\"> </a><a name=\"hcEpisode-2-Sykehjem\"> </a><a name=\"Episode-2-Sykehjem-no\"> </a><div style=\"display: inline-block; background-color: #d9e0e7; padding: 6px; margin: 4px; border: 1px solid #8da1b4; border-radius: 5px; line-height: 60%\"><p style=\"margin-bottom: 0px\"/><p style=\"margin-bottom: 0px\">Profile: <a href=\"StructureDefinition-lmdi-encounter.html\">Episode</a></p></div><p><b>status</b>: active</p><p><b>class</b>: <a href=\"http://terminology.hl7.org/6.2.0/CodeSystem-v3-ActCode.html#v3-ActCode-IMP\">ActCode IMP</a>: inpatient encounter</p><p><b>serviceProvider</b>: <a href=\"Bundle-LegemiddelregisterBundle-1.html#Organization_Organisasjon-2-Eldrehjem\">Bundle: identifier = urn:oid:2.16.578.1.34.10.3#bundle-001; type = batch; timestamp = 2024-02-07 13:28:17+0200</a></p></div>"
      },
      "status" : "active",
      "class" : {
        "system" : "http://terminology.hl7.org/CodeSystem/v3-ActCode",
        "code" : "IMP",
        "display" : "inpatient encounter"
      },
      "serviceProvider" : {
        "reference" : "Organization/Organisasjon-2-Eldrehjem"
      }
    },
    "request" : {
      "method" : "POST",
      "url" : "EpisodeOfCare"
    }
  },
  {
    "resource" : {
      "resourceType" : "Organization",
      "id" : "Organisasjon-2-Eldrehjem",
      "text" : {
        "status" : "generated",
        "div" : "<div xmlns=\"http://www.w3.org/1999/xhtml\"><a name=\"Organization_Organisasjon-2-Eldrehjem\"> </a><p class=\"res-header-id\"><b>Generated Narrative: Organization Organisasjon-2-Eldrehjem</b></p><a name=\"Organisasjon-2-Eldrehjem\"> </a><a name=\"hcOrganisasjon-2-Eldrehjem\"> </a><a name=\"Organisasjon-2-Eldrehjem-no\"> </a><p><b>identifier</b>: <code>urn:oid:2.16.578.1.12.4.1.4.101</code>/1234567890</p><p><b>name</b>: Lykkedalen eldrehjem</p></div>"
      },
      "identifier" : [{
        "system" : "urn:oid:2.16.578.1.12.4.1.4.101",
        "value" : "1234567890"
      }],
      "name" : "Lykkedalen eldrehjem"
    },
    "request" : {
      "method" : "POST",
      "url" : "Organization"
    }
  },
  {
    "resource" : {
      "resourceType" : "MedicationAdministration",
      "id" : "Administrering-10",
      "text" : {
        "status" : "generated",
        "div" : "<div xmlns=\"http://www.w3.org/1999/xhtml\"><a name=\"MedicationAdministration_Administrering-10\"> </a><p class=\"res-header-id\"><b>Generated Narrative: MedicationAdministration Administrering-10</b></p><a name=\"Administrering-10\"> </a><a name=\"hcAdministrering-10\"> </a><a name=\"Administrering-10-no\"> </a><p><b>status</b>: Completed</p><p><b>medication</b>: <a href=\"#hcAdministrering-10/Medisin-10\">Medication Oxycodone Orifarm mikst oppl 1 mg/ml</a></p><p><b>subject</b>: <a href=\"#hcAdministrering-10/Pasient-20\">Rosa Eli Kopter  (no stated gender), DoB Unknown ( urn:oid:2.16.578.1.12.4.1.4.1#13031353453)</a></p><p><b>context</b>: <a href=\"#hcAdministrering-10/Episode-2-Sykehjem\">Encounter: status = active; class = inpatient encounter (ActCode#IMP)</a></p><p><b>effective</b>: 2024-05-28 13:14:00+0000</p><blockquote><p><b>performer</b></p><p><b>actor</b>: <a href=\"#hcAdministrering-10/Helsepersonell-10\">Practitioner Rita Lin </a></p></blockquote><blockquote><p><b>performer</b></p><p><b>actor</b>: <a href=\"#hcAdministrering-10/RolleHelsepersonell-10\">PractitionerRole: identifier = urn:oid:2.16.578.1.12.4.1.1.9034#9</a></p></blockquote><hr/><blockquote><p class=\"res-header-id\"><b>Generated Narrative: Medication #Medisin-10</b></p><a name=\"Administrering-10/Medisin-10\"> </a><a name=\"hcAdministrering-10/Medisin-10\"> </a><a name=\"Administrering-10/Medisin-10-no\"> </a><p><b>code</b>: <span title=\"Codes:{http://dmp.no/fhir/NamingSystem/festLegemiddelDose ID_48BD33D2-2838-4B81-8225-02391B7A4516}, {http://snomed.info/sct 414984009}\">Oxycodone</span></p></blockquote><hr/><blockquote><p class=\"res-header-id\"><b>Generated Narrative: Patient #Pasient-20</b></p><a name=\"Administrering-10/Pasient-20\"> </a><a name=\"hcAdministrering-10/Pasient-20\"> </a><a name=\"Administrering-10/Pasient-20-no\"> </a><p style=\"border: 1px #661aff solid; background-color: #e6e6ff; padding: 10px;\">Rosa Eli Kopter  (no stated gender), DoB Unknown ( urn:oid:2.16.578.1.12.4.1.4.1#13031353453)</p><hr/></blockquote><hr/><blockquote><p class=\"res-header-id\"><b>Generated Narrative: Practitioner #Helsepersonell-10</b></p><a name=\"Administrering-10/Helsepersonell-10\"> </a><a name=\"hcAdministrering-10/Helsepersonell-10\"> </a><a name=\"Administrering-10/Helsepersonell-10-no\"> </a><p><b>identifier</b>: <code>urn:oid:2.16.578.1.12.4.1.4.4</code>/9144900</p><p><b>name</b>: Rita Lin </p></blockquote><hr/><blockquote><p class=\"res-header-id\"><b>Generated Narrative: PractitionerRole #RolleHelsepersonell-10</b></p><a name=\"Administrering-10/RolleHelsepersonell-10\"> </a><a name=\"hcAdministrering-10/RolleHelsepersonell-10\"> </a><a name=\"Administrering-10/RolleHelsepersonell-10-no\"> </a><p><b>identifier</b>: <code>urn:oid:2.16.578.1.12.4.1.1.9034</code>/9</p></blockquote><hr/><blockquote><p class=\"res-header-id\"><b>Generated Narrative: Encounter #Episode-2-Sykehjem</b></p><a name=\"Administrering-10/Episode-2-Sykehjem\"> </a><a name=\"hcAdministrering-10/Episode-2-Sykehjem\"> </a><a name=\"Administrering-10/Episode-2-Sykehjem-no\"> </a><div style=\"display: inline-block; background-color: #d9e0e7; padding: 6px; margin: 4px; border: 1px solid #8da1b4; border-radius: 5px; line-height: 60%\"><p style=\"margin-bottom: 0px\"/><p style=\"margin-bottom: 0px\">Profile: <a href=\"StructureDefinition-lmdi-encounter.html\">Episode</a></p></div><p><b>status</b>: active</p><p><b>class</b>: <a href=\"http://terminology.hl7.org/6.2.0/CodeSystem-v3-ActCode.html#v3-ActCode-IMP\">ActCode IMP</a>: inpatient encounter</p><p><b>serviceProvider</b>: <a href=\"#hcAdministrering-10/Organisasjon-2-Eldrehjem\">Organization Lykkedalen eldrehjem</a></p></blockquote><hr/><blockquote><p class=\"res-header-id\"><b>Generated Narrative: Organization #Organisasjon-2-Eldrehjem</b></p><a name=\"Administrering-10/Organisasjon-2-Eldrehjem\"> </a><a name=\"hcAdministrering-10/Organisasjon-2-Eldrehjem\"> </a><a name=\"Administrering-10/Organisasjon-2-Eldrehjem-no\"> </a><p><b>identifier</b>: <code>urn:oid:2.16.578.1.12.4.1.4.101</code>/1234567890</p><p><b>name</b>: Lykkedalen eldrehjem</p></blockquote></div>"
      },
      "contained" : [{
        "resourceType" : "Medication",
        "id" : "Medisin-10",
        "code" : {
          "coding" : [{
            "system" : "http://dmp.no/fhir/NamingSystem/festLegemiddelDose",
            "code" : "ID_48BD33D2-2838-4B81-8225-02391B7A4516",
            "display" : "Oxycodone Orifarm mikst oppl 1 mg/ml"
          },
          {
            "system" : "http://snomed.info/sct",
            "code" : "414984009",
            "display" : "Product containing oxycodone (medicinal product)"
          }],
          "text" : "Oxycodone"
        }
      },
      {
        "resourceType" : "Patient",
        "id" : "Pasient-20",
        "identifier" : [{
          "system" : "urn:oid:2.16.578.1.12.4.1.4.1",
          "value" : "13031353453"
        }],
        "name" : [{
          "family" : "Kopter",
          "given" : ["Rosa Eli"]
        }]
      },
      {
        "resourceType" : "Practitioner",
        "id" : "Helsepersonell-10",
        "identifier" : [{
          "system" : "urn:oid:2.16.578.1.12.4.1.4.4",
          "value" : "9144900"
        }],
        "name" : [{
          "family" : "Lin",
          "given" : ["Rita"]
        }]
      },
      {
        "resourceType" : "PractitionerRole",
        "id" : "RolleHelsepersonell-10",
        "identifier" : [{
          "system" : "urn:oid:2.16.578.1.12.4.1.1.9034",
          "value" : "9"
        }]
      },
      {
        "resourceType" : "Encounter",
        "id" : "Episode-2-Sykehjem",
        "meta" : {
          "profile" : ["http://hl7.no/fhir/ig/lmdi/StructureDefinition/lmdi-encounter"]
        },
        "status" : "active",
        "class" : {
          "system" : "http://terminology.hl7.org/CodeSystem/v3-ActCode",
          "code" : "IMP",
          "display" : "inpatient encounter"
        },
        "serviceProvider" : {
          "reference" : "#Organisasjon-2-Eldrehjem"
        }
      },
      {
        "resourceType" : "Organization",
        "id" : "Organisasjon-2-Eldrehjem",
        "identifier" : [{
          "system" : "urn:oid:2.16.578.1.12.4.1.4.101",
          "value" : "1234567890"
        }],
        "name" : "Lykkedalen eldrehjem"
      }],
      "status" : "completed",
      "medicationReference" : {
        "reference" : "#Medisin-10"
      },
      "subject" : {
        "reference" : "#Pasient-20"
      },
      "context" : {
        "reference" : "#Episode-2-Sykehjem"
      },
      "effectiveDateTime" : "2024-05-28T13:14:00Z",
      "performer" : [{
        "actor" : {
          "reference" : "#Helsepersonell-10"
        }
      },
      {
        "actor" : {
          "reference" : "#RolleHelsepersonell-10"
        }
      }]
    },
    "request" : {
      "method" : "POST",
      "url" : "MedicationAdministration"
    }
  }]
}